File: code/data/concrete_28_days_scaled.csv
,cement_kg,scm1_kg,scm2_kg,water_kg,additive_kg,aggregate_coarse_kg,aggregate_fine_kg,age_days,compressive_strength_mpa
0,2.62615,-0.983607,-0.949284,-1.09077,-0.83454,1.00284,-1.21008,0.0,2.94256
1,2.62615,-0.983607,-0.949284,-1.09077,-0.83454,1.18205,-1.21008,0.0,1.71084
2,1.09574,0.0993467,-0.949284,2.32774,-1.29873,-0.287435,-2.33284,0.0,-0.020465
3,0.00532402,0.315937,-0.949284,2.32774,-1.29873,-0.287435,-1.29223,0.0,0.6197
4,2.00442,-0.983607,-0.949284,2.32774,-1.29873,-0.287435,-2.33284,0.0,0.17295
5,-0.63936,0.525689,-0.949284,0.463101,-1.29873,0.266907,0.836917,0.0,-0.593906
6,0.368796,-0.117244,-0.949284,2.32774,-1.29873,-0.287435,-1.29223,0.0,0.753054
7,-1.2037,1.40345,-0.949284,0.463101,-1.29873,1.08647,0.582241,0.0,-0.57922
8,1.55008,-0.44213,-0.949284,2.32774,-1.29873,-0.287435,-2.33284,0.0,0.046212
9,-0.26728,1.72378,-0.949284,2.32774,-1.29873,-0.287435,-2.33284,0.0,-0.453842
10,0.6414,0.640824,-0.949284,2.32774,-1.29873,-0.287435,-2.33284,0.0,-0.253811
11,-0.72162,1.1823,-0.949284,2.32774,-1.29873,-0.287435,-1.29223,0.0,0.279605
12,2.10007,-0.983607,-0.949284,-1.9195,-1.29873,1.9586,0.487764,0.0,2.39826
13,1.03835,1.17318,-0.949284,-0.671224,0.576597,-0.357922,-0.10511,0.0,1.65688
14,0.457751,2.00535,-0.949284,-0.391528,0.298083,1.08528,-2.08912,0.0,1.56866
15,1.52617,0.228161,-0.949284,-1.53103,1.76492,-1.242,1.68036,0.0,1.60245
16,1.52617,0.228161,-0.949284,-1.6398,2.15484,-0.239647,0.538426,0.0,1.70474
17,1.04791,0.0856672,-0.949284,-2.92433,3.04609,-1.242,3.12489,0.0,1.35751
18,2.00442,0.370655,-0.949284,-0.101472,0.353786,-1.242,0.234457,0.0,2.14722
19,1.94703,0.352416,-0.949284,-2.34422,4.68003,-1.242,1.0423,0.0,2.05197
21,1.178,0.123286,-0.949284,-1.30313,0.947949,-1.242,2.20888,0.0,0.949285
22,2.54293,-0.983607,-0.949284,-2.13704,3.93733,-1.242,1.77073,0.0,1.33733
24,0.510359,1.43879,-0.949284,-1.41708,1.35644,-1.242,1.58862,0.0,1.27587
25,1.30426,0.0959268,-0.949284,-1.84699,0.817976,-0.110619,1.20113,0.0,2.16083
26,0.929308,1.1709,-0.949284,-0.940561,0.855111,-0.135708,-0.117433,0.0,2.35133
27,0.557227,2.24018,-0.949284,0.0383763,0.613732,-0.159602,-1.43052,0.0,2.58266
28,1.09096,0.739999,-0.949284,-1.51031,1.65352,2.12945,-2.18223,0.0,1.05158
30,0.199494,1.30656,-0.949284,-1.98683,0.780841,0.579919,0.538426,0.0,2.1064
32,1.66008,1.03411,-0.949284,0.152327,0.762273,-0.850139,-0.773293,0.0,1.9905
33,1.19043,1.1709,-0.949284,-1.92468,2.78614,-0.135708,-0.117433,0.0,2.56905
35,0.693051,1.1709,-0.949284,-0.422605,0.465192,-0.135708,-0.117433,0.0,0.894855
36,-0.412095,-0.983607,0.512101,0.322734,-0.470615,0.131667,1.4506,0.0,-0.807029
37,-0.302575,-0.983607,0.480506,0.768177,-0.450748,-0.107752,1.20195,0.0,-0.946858
38,-0.676855,-0.983607,0.570303,-0.903269,0.0901262,0.601423,1.93777,0.0,-0.750253
39,-0.715115,-0.983607,0.94642,-1.08352,0.143972,1.60019,0.54267,0.0,-0.704268
40,-0.510519,-0.983607,0.889277,-0.142391,-0.242234,1.21311,0.204608,0.0,-0.80609
41,-0.339305,-0.983607,0.839239,0.642832,-0.43905,0.876205,-0.0792321,0.0,-0.834713
42,-0.718367,-0.983607,0.943094,-1.09854,0.535748,1.57749,0.523227,0.0,-0.563501
43,-0.95032,-0.983607,1.51891,-0.341804,-0.465045,1.22506,0.215151,0.0,-1.03507
44,-0.932529,-0.503916,1.52738,-3.17554,-0.236663,1.22625,0.215425,0.0,-0.851136
45,-0.494737,0.134115,-0.57876,-0.0698766,-0.0249929,1.31108,0.287583,0.0,0.609565
46,-0.494354,0.134229,-0.578608,-0.0683227,-0.0639848,1.31347,0.2895,0.0,0.236999
47,-0.342079,-0.983607,0.836971,0.630401,-0.160536,0.860674,-0.0923767,0.0,-0.830959
48,-0.262019,-0.983607,0.473401,0.186512,0.00100178,-0.0734638,1.13144,0.0,-0.443379
49,-0.147717,-0.983607,0.497287,0.225877,-0.271942,0.00956801,1.32532,0.0,-0.512355
50,-0.506215,-0.983607,0.568035,-1.22958,0.318508,0.618149,1.90614,0.0,-0.347656
51,-0.505736,-0.983607,0.568338,-1.22803,0.62673,0.570361,1.90888,0.0,0.0446167
52,-0.511189,-0.983607,0.937047,-1.24616,0.15697,1.54524,0.481466,0.0,0.119224
53,-0.322279,-0.983607,0.889277,-0.471293,-0.0509875,1.19877,0.192696,0.0,-0.205481
54,-0.134613,-0.983607,0.838634,0.279226,-0.231093,0.864258,-0.0910074,0.0,-0.482794
55,-0.134613,-0.983607,0.838634,0.279226,-0.119688,0.864258,-0.0910074,0.0,-0.278211
56,-0.80407,-0.983607,1.57545,-0.69764,0.10498,1.18922,0.183796,0.0,-0.610892
57,-0.797757,-0.468235,0.894568,-0.665527,0.221956,1.23462,0.222819,0.0,-0.372995
58,-0.923633,-0.50232,0.929035,-1.28086,0.712141,1.49028,0.435049,0.0,-0.383318
59,0.238233,-0.983607,0.504694,-0.775851,0.448481,0.0611791,1.37776,0.0,-0.136974
60,0.111018,-0.983607,0.522986,-1.16328,0.897816,0.213145,1.52304,0.0,0.785056
61,0.289502,-0.983607,0.496531,-0.596638,0.348216,-0.0109809,1.29835,0.0,0.217292
62,-0.130404,-0.983607,0.561535,-1.91225,0.994368,0.596644,1.8537,0.0,-0.190935
63,-0.156325,-0.983607,0.543545,-1.29225,1.07792,0.378731,1.70651,0.0,-0.401617
64,-0.125621,-0.983607,0.543545,-1.90655,1.3323,0.378731,1.70651,0.0,0.942716
65,-0.178038,-0.983607,0.941583,-2.05935,0.927525,1.56196,0.49995,0.0,1.07222
66,0.092079,-0.983607,0.885195,-1.22129,0.539462,1.16532,0.179688,0.0,0.992454
67,0.303371,-0.983607,0.827599,-0.427785,0.468905,0.797354,-0.14961,0.0,0.724995
68,-0.494545,-0.983607,1.69231,-1.46422,0.587738,1.16413,0.163942,0.0,0.231369
69,-0.496841,-0.983607,1.68475,-1.47354,0.866252,1.14979,0.15203,0.0,0.625519
70,0.112357,0.131493,-0.579516,-1.1581,0.778984,1.26209,0.247602,0.0,1.79624
71,-0.451598,-0.360738,0.92193,-2.19143,0.912671,1.42935,0.3874,0.0,1.2768
72,-0.48345,-0.370313,0.893359,-1.42071,0.485616,0.695805,0.221861,0.0,1.05158
73,-0.445668,-0.983607,0.927221,-1.27257,0.804979,1.46519,0.418071,0.0,-0.444317
74,1.05748,-0.983607,-0.949284,1.63368,-1.29873,0.566777,-0.0276123,0.0,-0.325134
75,2.24355,-0.983607,-0.949284,-2.23027,-0.556026,0.118764,1.21345,0.0,2.09748
76,2.00442,-0.983607,-0.0573655,-2.12668,-0.945945,1.69577,-1.6893,0.0,1.39364
77,0.474011,0.578126,-0.949284,-1.97129,-0.203242,2.07807,-0.26531,0.0,3.06268
78,2.29137,-0.983607,-0.0422483,0.618488,-1.29873,0.883373,-1.83992,0.0,1.85583
79,1.77486,-0.983607,-0.949284,-0.935382,0.790124,0.883373,-0.26531,0.0,2.86185
80,2.39659,-0.983607,-0.949284,-1.09077,0.223813,-1.85249,0.515149,0.0,0.314422
81,2.43485,-0.983607,-0.949284,-0.676404,-0.333215,-1.20736,1.24084,0.0,1.60151
82,2.51137,-0.983607,-0.949284,0.100531,-0.0249929,-0.430799,-0.607616,0.0,1.3669
83,2.43485,-0.983607,-0.949284,-0.417425,-0.333215,-1.02815,0.556225,0.0,0.971338
84,1.14356,-0.983607,1.10666,-1.29795,2.41479,-0.633898,0.049612,0.0,1.27962
85,2.2445,-0.983607,-0.949284,0.877466,-0.741702,2.01117,-2.06995,0.0,0.502581
86,1.76625,-0.413632,-0.949284,0.877466,-0.741702,2.01117,-2.06995,0.0,0.178815
87,1.25835,-0.787536,1.43924,-0.831791,2.56333,0.130711,-1.79884,0.0,1.28619
88,0.646182,-0.784116,1.51483,-0.831791,2.02487,0.477174,-1.53869,0.0,0.716549
89,0.655747,-0.782976,1.43924,0.307714,1.54211,0.130711,-1.79884,0.0,0.51572
90,1.33487,-0.983607,-0.949284,-0.417425,-1.29873,1.9586,-0.949923,0.0,1.05861
91,-0.625969,1.2963,-0.949284,0.359509,-1.29873,2.25728,-1.42915,0.0,0.850747
92,2.39659,-0.983607,-0.949284,-1.09077,0.234953,-1.85249,0.515149,0.0,0.314422
93,-1.15205,0.338737,0.84967,0.0487354,-0.240377,-1.47019,1.58314,0.0,-0.516578
94,-1.00857,0.475531,0.895022,-0.0548559,-0.110404,-1.57771,1.56945,0.0,0.180223
95,-0.300757,0.794717,-0.949284,0.307714,-0.212526,0.297969,-0.059926,0.0,0.173654
96,-0.147717,1.06831,0.486856,-1.24616,0.455908,-1.14762,0.487764,0.0,2.11766
97,2.00442,-0.983607,-0.949284,-1.09077,0.465192,1.05063,-1.40177,0.0,1.48186
98,0.18706,1.1823,-0.949284,-1.03897,0.112407,0.89532,-1.08685,0.0,1.14542
99,0.866178,0.372935,-0.949284,-1.19436,0.377924,1.25373,-1.47023,0.0,1.51423
100,0.0914094,1.06831,0.864787,-1.09077,0.623016,-1.50603,0.00853527,0.0,2.6873
101,2.24355,-0.983607,-0.949284,-1.66052,0.372354,0.919214,-1.49761,0.0,2.25186
102,-0.960746,-0.983379,1.2211,-0.997019,-1.29873,0.591866,1.86931,0.0,-0.717876
103,-0.960746,0.48123,1.04771,-0.414318,0.201532,0.594255,-0.243402,0.0,0.656018
104,-0.836113,0.49605,0.843623,-0.161555,-0.635867,0.612176,-0.240664,0.0,0.164269
105,-0.938268,0.49719,0.995098,-0.393599,0.147686,0.600229,-0.243402,0.0,0.30316
106,-0.890156,-0.82846,1.65648,-1.36218,-0.530031,0.600229,1.26001,0.0,-0.208296
107,-0.87906,-0.413062,1.67401,-0.947295,-0.0974065,0.599034,0.398765,0.0,0.0990469
108,-0.941616,-0.124084,1.5753,-0.985624,0.169967,0.612176,0.0783658,0.0,0.317237
109,-0.876478,0.0807654,1.46797,-0.555202,0.507897,0.610981,-0.243402,0.0,0.072301
110,-0.718367,-0.983607,0.943094,-0.851991,0.535748,1.46878,0.472703,0.0,-0.809844
111,-0.147717,-0.983607,0.497287,0.454813,-0.309077,-0.0855302,1.27096,0.0,-0.64843
112,-0.496841,-0.983607,1.68475,-1.23528,0.866252,1.04585,0.103012,0.0,0.536835
113,-0.676855,-0.983607,0.570303,-0.667598,0.0901262,0.501068,1.88164,0.0,0.0352322
114,-0.134613,-0.983607,0.838634,0.511789,-0.231093,1.04585,-0.137972,0.0,-0.23645
115,1.72703,-0.710019,0.24498,-1.09077,0.856968,0.130711,-0.717154,0.0,1.38003
116,1.72703,-0.710019,0.24498,-1.09077,0.862538,0.130711,-0.717154,0.0,0.522289
117,1.72703,-0.710019,0.24498,-1.09077,0.862538,0.130711,-0.717154,0.0,0.971338
118,1.72703,-0.710019,0.24498,-1.09077,0.613732,0.130711,-0.717154,0.0,1.13228
119,1.16269,-0.755617,0.471738,-1.34975,1.36015,-0.215753,1.10392,0.0,0.917847
120,1.16269,-0.755617,0.471738,-1.34975,1.28774,-0.215753,1.10392,0.0,0.676195
121,1.16269,-0.755617,0.471738,-1.34975,0.856968,-0.215753,1.10392,0.0,0.676195
122,0.856613,-0.767017,0.51709,-1.97129,1.1392,0.130711,1.45991,0.0,0.495543
123,0.856613,-0.767017,0.51709,-1.97129,0.9758,0.130711,1.45991,0.0,1.27305
124,2.15746,-0.68722,0.910139,1.39542,-0.569023,-0.884786,-0.895154,0.0,1.27962
125,2.15746,-0.68722,0.910139,0.929262,-0.569023,-1.60161,-0.895154,0.0,1.44056
126,1.5166,-0.732818,1.04619,-0.262038,0.275802,-1.60161,-0.196849,0.0,1.7221
127,1.5166,-0.732818,1.04619,-0.779995,0.3575,-1.60161,-0.196849,0.0,2.40576
128,-0.606839,-0.858213,1.18225,1.18824,-0.979367,-0.167965,0.501456,0.0,-1.00598
129,0.177495,-0.812615,1.18225,-0.210243,-0.284939,-1.36267,0.501456,0.0,0.475366
130,0.894873,-0.767017,1.18225,-1.50513,0.726995,-0.167965,0.501456,0.0,1.78216
131,0.894873,-0.767017,1.18225,-1.50513,0.726995,-0.167965,0.501456,0.0,1.54802
132,1.63138,-0.983607,-0.949284,1.80979,-1.29873,-1.40568,-0.611724,0.0,-0.877882
133,1.22009,-0.983607,-0.949284,0.463101,-1.29873,-0.18469,0.290596,0.0,0.194394
134,2.05224,-0.983607,-0.949284,0.463101,-1.29873,-0.237257,-0.714416,0.0,0.489584
135,-0.0998915,-0.983607,-0.949284,0.463101,-1.29873,-0.791599,2.47314,0.0,-1.22516
136,0.646182,-0.983607,-0.949284,0.463101,-1.29873,-0.296992,1.07105,0.0,-0.325415
137,0.22532,-0.983607,-0.949284,0.463101,-1.29873,-0.512039,1.79264,0.0,-0.760529
138,-0.799096,2.12618,-0.949284,0.136788,-1.29873,0.673105,-0.685662,0.0,-0.599772
139,-0.688142,2.32453,-0.949284,0.136788,-1.29873,0.503458,-0.822585,0.0,-0.28051
140,-0.247193,3.11338,-0.949284,0.136788,-1.29873,-0.172743,-1.37027,0.0,0.182851
141,-0.427016,0.694401,-0.949284,0.136788,-1.29873,1.18205,-0.274894,0.0,-0.748845
142,1.25835,-0.983607,-0.949284,0.136788,-1.29873,1.01001,-0.411817,0.0,-0.249494
143,-1.02005,1.73176,-0.949284,0.136788,-1.29873,1.01001,-0.411817,0.0,-1.06726
144,-0.095109,0.95773,-0.949284,0.136788,-1.29873,0.842753,-0.54874,0.0,-0.319644
145,1.10913,-0.983607,-0.949284,0.136788,-1.29873,1.77462,0.272796,0.0,-0.970413
146,0.290362,-0.983607,-0.949284,0.136788,-1.29873,1.61692,0.067412,0.0,-0.784788
147,-0.358148,2.91617,-0.949284,0.136788,-1.29873,-0.00309582,-1.23335,0.0,0.200822
148,0.484533,1.41827,-0.949284,0.136788,-1.29873,0.250181,-1.02797,0.0,0.132831
149,-0.261541,-0.983607,-0.949284,0.136788,-1.29873,1.94427,0.341257,0.0,-1.30478
150,-1.241,1.33619,-0.949284,0.136788,-1.29873,1.43533,-0.0695106,0.0,-1.26241
151,-0.592491,0.563307,-0.949284,0.136788,-1.29873,1.43533,-0.0695106,0.0,-0.960841
152,-0.910051,0.789017,-0.949284,0.136788,-1.29873,0.842753,-0.54874,0.0,-0.750112
153,-0.523623,2.61978,-0.949284,0.136788,-1.29873,0.250181,-1.02797,0.0,0.0724887
154,0.236798,1.2222,-0.949284,0.136788,-1.29873,0.503458,-0.822585,0.0,-0.252169
155,-0.260584,0.826636,-0.949284,0.136788,-1.29873,1.01001,-0.411817,0.0,-0.669311
156,0.705485,-0.983607,-0.949284,0.136788,-1.29873,1.3517,-0.137972,0.0,-0.329967
157,-0.123804,-0.983607,-0.949284,0.136788,-1.29873,1.85825,0.272796,0.0,-1.1558
158,1.11965,-0.983607,-0.949284,0.136788,-1.29873,1.09603,-0.343356,0.0,0.0469159
159,-0.757967,0.431073,-0.949284,0.136788,-1.29873,1.52134,-0.00104931,0.0,-1.30338
160,0.0703663,1.08996,-0.949284,0.136788,-1.29873,0.673105,-0.685662,0.0,-0.365252
161,0.703572,-0.983607,-0.949284,0.722079,-1.29873,0.142658,0.227611,0.0,-0.320441
162,-0.281627,-0.983607,-0.949284,0.566692,-1.29873,0.142658,1.65161,0.0,-1.24763
163,0.11054,-0.983607,-0.949284,0.411305,-1.29873,0.142658,1.25453,0.0,-0.73383
164,0.397491,-0.983607,-0.949284,0.514896,-1.29873,0.142658,0.652071,0.0,-0.627315
165,-0.625969,-0.983607,-0.949284,-0.158447,-1.29873,2.01834,1.10392,0.0,-1.66759
166,-0.386843,-0.983607,-0.949284,-0.106652,-1.29873,1.87498,0.939609,0.0,-1.32083
167,0.569662,-0.983607,-0.949284,0.0487354,-1.29873,1.27762,0.254996,0.0,-0.420387
168,0.0914094,-0.983607,-0.949284,-0.00306021,-1.29873,1.5763,0.597302,0.0,-0.833775
169,0.330536,-0.983607,-0.949284,0.0487354,-1.29873,1.42099,0.419303,0.0,-0.673769
170,1.04791,-0.983607,-0.949284,0.152327,-1.29873,0.978949,-0.0873105,0.0,0.0995161
171,1.28704,-0.983607,-0.949284,0.204122,-1.29873,0.823638,-0.26531,0.0,0.47302
172,-0.147717,-0.983607,-0.949284,-0.0548559,-1.29873,1.71966,0.761609,0.0,-1.08059
173,0.808788,-0.983607,-0.949284,0.152327,-1.29873,1.12231,0.0769965,0.0,-0.167004
174,-1.18744,1.43309,-0.949284,1.05875,-1.29873,0.188056,-0.217387,0.0,-0.466605
175,-1.3663,1.11276,-0.949284,1.05875,-1.29873,0.025577,0.489133,0.0,-0.847805
176,-0.943529,1.86855,-0.949284,1.05875,-1.29873,0.233455,-0.982784,0.0,-0.190606
177,-1.50308,0.867674,-0.949284,1.05875,-1.29873,-0.213363,1.15868,0.0,-1.0994
178,-1.03727,1.70668,-0.949284,0.463101,-1.29873,-0.246815,0.23035,0.0,-0.209892
179,-1.26683,1.2963,-0.949284,0.463101,-1.29873,-0.342391,1.0245,0.0,-0.603901
180,-0.702489,2.29945,-0.949284,0.463101,-1.29873,-0.313718,-0.661016,0.0,0.175108
181,0.38123,1.33619,-0.949284,1.05875,-1.29873,0.111596,-1.82623,0.0,0.451107
182,0.215755,1.2051,-0.949284,0.463101,-1.29873,-0.287435,-0.637739,0.0,0.139917
183,-0.511189,0.627144,-0.949284,1.05875,-1.29873,0.207172,-0.196849,0.0,-0.254843
184,-1.56334,0.760519,-0.949284,0.463101,-1.29873,-0.825051,2.43206,0.0,-1.32524
185,-0.884225,0.338737,-0.949284,0.463101,-1.29873,-0.110619,1.26548,0.0,-0.848415
186,-0.779966,0.413973,-0.949284,1.05875,-1.29873,0.037524,0.487764,0.0,-0.864462
187,-1.07553,0.179143,-0.949284,0.463101,-1.29873,-0.813104,2.44713,0.0,-1.27837
188,-0.281627,0.806117,-0.949284,0.463101,-1.29873,0.197614,-0.209172,0.0,-0.262961
189,-1.42943,0.988509,-0.949284,0.463101,-1.29873,-0.552659,1.74608,0.0,-0.980033
190,-0.592491,2.49667,-0.949284,1.05875,-1.29873,0.0877015,-1.83992,0.0,0.335912
191,-0.625969,0.532528,-0.949284,0.463101,-1.29873,0.111596,0.572656,0.0,-0.429349
192,-0.145804,0.917832,-0.949284,1.05875,-1.29873,0.257349,-0.962246,0.0,0.01468
193,0.426186,-0.983607,-0.949284,0.463101,-1.29873,0.668327,0.898532,0.0,-0.607139
194,0.627052,-0.983607,-0.949284,0.463101,-1.29873,0.823638,0.775302,0.0,-0.340618
195,0.799223,-0.983607,-0.949284,0.463101,-1.29873,1.194,0.610995,0.0,-0.213927
196,-0.262497,-0.983607,-0.949284,0.152327,-1.29873,1.94666,0.337149,0.0,-1.30722
197,0.292275,-0.983607,-0.949284,0.152327,-1.29873,1.60019,0.0633043,0.0,-0.787321
198,2.05224,-0.983607,-0.949284,0.463101,-1.29873,-0.239647,-0.593924,0.0,0.486159
199,1.25835,-0.983607,-0.949284,0.152327,-1.29873,1.00284,-0.415925,0.0,0.0127093
200,0.1488,-0.983607,-0.949284,0.100531,-1.29873,1.76745,0.131766,0.0,-0.974073
201,2.24355,-0.983607,-0.949284,0.877466,-1.29873,2.01834,-2.07269,0.0,0.499766
202,2.62615,-0.983607,-0.949284,-0.521017,-1.29873,2.01834,-2.07269,0.0,2.07965
203,0.808788,-0.983607,-0.949284,1.03285,-1.29873,0.21434,0.145458,0.0,-0.640454
204,1.14356,-0.983607,-0.949284,0.152327,-1.29873,0.118764,-0.0188492,0.0,-0.367364
205,1.11487,-0.983607,-0.949284,0.152327,-1.29873,1.08647,-0.347463,0.0,0.0460244
206,0.1488,-0.983607,-0.949284,0.152327,-1.29873,1.76745,0.131766,0.0,-0.974073
207,0.703572,-0.983607,-0.949284,0.100531,-1.29873,1.34931,-0.14208,0.0,-0.334049
208,0.28271,-0.983607,-0.949284,0.100531,-1.29873,1.34931,0.0633043,0.0,-0.787321
209,-0.262497,-0.983607,-0.949284,0.100531,-1.29873,1.93471,0.337149,0.0,-1.30722
210,0.292275,-0.983607,-0.949284,0.463101,-1.29873,1.54046,0.00853527,0.0,-1.02757
211,0.627052,-0.983607,-0.949284,0.463101,-1.29873,0.262128,0.830071,0.0,-0.360795
212,0.799223,-0.983607,-0.949284,0.463101,-1.29873,1.08647,0.569918,0.0,-0.273988
213,-0.128587,-0.983607,-0.949284,0.100531,-1.29873,1.85108,0.268688,0.0,-1.16083
214,0.703572,-0.983607,-0.949284,0.100531,-1.29873,1.24178,-0.14208,0.0,-0.347187
215,1.22009,-0.983607,-0.949284,0.463101,-1.29873,-0.191859,-0.0873105,0.0,0.192892
216,1.11487,-0.983607,-0.949284,0.100531,-1.29873,1.08647,-0.347463,0.0,0.0460244
218,0.426186,-0.983607,-0.949284,0.463101,-1.29873,0.166552,1.17238,0.0,-0.600569
219,2.48267,-0.983607,-0.949284,0.307714,-1.29873,2.01834,-2.07269,0.0,1.30637
220,0.540967,-0.983607,-0.949284,1.03285,-1.29873,0.21434,0.487764,0.0,-0.787321
221,0.349666,-0.983607,-0.949284,1.03285,-1.29873,0.21434,0.720533,0.0,-1.02053
222,1.25835,-0.983607,-0.949284,0.100531,-1.29873,1.00284,-0.415925,0.0,0.159577
223,2.45398,-0.983607,-0.949284,-1.9195,-1.29873,-0.717527,1.80222,0.0,2.60237
224,0.0722793,0.213342,0.290331,1.39542,0.372354,-0.621951,-1.15531,0.0,0.028663
225,-0.989441,1.1823,1.28807,-0.210243,2.22911,-1.41045,-0.320079,0.0,-0.203604
226,-1.06596,0.657923,0.743849,1.91338,0.55803,-0.394958,-1.45654,0.0,-1.37808
227,-1.13292,0.327337,0.396152,0.981057,0.372354,-1.14762,0.88484,0.0,-1.14065
228,-1.08509,1.04551,1.15201,-0.779995,2.04344,-0.144071,-0.949923,0.0,-0.0271749
229,0.426186,0.646523,0.728732,-0.779995,2.78614,-0.502481,-1.55238,0.0,-0.208296
230,-1.16161,-0.983607,1.69624,-1.29795,2.04344,-0.156018,1.09022,0.0,-1.45175
231,0.368796,0.612325,-0.949284,1.6026,-0.184674,-0.729474,-0.580232,0.0,-0.226596
232,1.03835,-0.983607,-0.949284,0.359509,0.00100178,0.680274,-0.470694,0.0,0.156762
233,-1.01814,0.714921,0.804318,-0.417425,1.48641,-0.0365475,-0.607616,0.0,-0.617462
234,-1.07553,1.74088,-0.949284,0.877466,-0.184674,0.548856,-1.10054,0.0,-0.673299
235,0.426186,0.646523,-0.949284,-0.779995,0.55803,-0.502481,0.542533,0.0,0.581881
236,0.378361,-0.983607,0.562442,0.670283,0.55803,0.0351346,-0.813,0.0,-0.450886
237,-1.09466,-0.983607,1.83229,-0.831791,0.929381,0.417439,0.104381,0.0,-1.44142
238,-1.18074,0.920112,1.01596,-0.469221,0.743705,-0.872839,0.28238,0.0,0.534958
239,0.311406,0.578126,0.668263,0.929262,-0.184674,-0.932574,-1.49761,0.0,1.14167
240,0.531402,0.885913,-0.949284,0.359509,-0.37035,-1.02815,0.131766,0.0,1.3927
241,0.961829,1.1481,-0.949284,0.411305,0.00100178,-1.57771,-0.101003,0.0,1.9844
242,0.139235,0.48693,0.562442,-0.572812,0.372354,-1.56577,0.556225,0.0,1.09381
243,-0.128587,0.122146,0.199628,0.566692,0.186678,-1.4463,0.775302,0.0,-0.228004
244,-0.960746,-0.983607,1.3183,-0.0548559,0.929381,0.799744,-0.484386,0.0,-1.27391
245,-1.04683,1.78648,-0.949284,-0.158447,0.743705,0.787797,-0.908846,0.0,0.0418013
246,-1.00857,1.1595,1.25784,1.03285,0.743705,-1.51798,-0.744539,0.0,-0.266011
247,0.311406,-0.983607,0.668263,0.152327,-0.184674,-0.920627,0.693148,0.0,0.400759
248,0.502706,-0.983607,0.955491,1.39542,-0.184674,-1.13567,-0.374848,0.0,0.225269
249,0.20619,0.395734,0.471738,0.255918,0.372354,-0.621951,-0.93623,0.0,0.353368
250,0.579227,0.908712,-0.949284,-0.469221,0.372354,-0.884786,0.350842,0.0,1.66626
251,0.866178,-0.983607,1.19737,0.514896,0.743705,-1.85249,0.186535,0.0,0.280168
252,-1.27639,1.37609,1.48459,-0.210243,-0.37035,-1.06399,-0.38854,0.0,-0.234573
253,0.540967,0.714921,-0.949284,0.152327,0.186678,-0.0604415,-0.758231,0.0,1.06659
254,-0.970311,-0.983607,2.07417,-0.106652,1.11506,-1.27904,1.11761,0.0,-1.47427
255,0.464446,-0.983607,0.758966,-0.676404,0.55803,-0.371064,0.254996,0.0,0.116408
256,0.531402,-0.983607,0.985725,-0.0548559,0.743705,-1.02815,0.213919,0.0,0.0347629
257,-1.19987,0.885913,0.985725,2.7939,-0.184674,-1.0401,-1.48392,0.0,-0.103659
258,0.215755,0.395734,-0.949284,-0.313834,0.00100178,-0.574163,0.88484,0.0,0.366506
259,0.311406,-0.983607,0.668263,1.39542,0.743705,-0.90868,-0.279002,0.0,-0.331703
260,-0.00424103,0.281739,0.3508,0.618488,-0.184674,-1.47019,0.350842,0.0,0.326152
261,-1.00857,1.86627,-0.949284,-0.779995,0.929381,1.11037,-1.04577,0.0,0.183977
262,-0.951181,1.98027,-0.949284,-0.00306021,1.11506,-1.15957,0.857455,0.0,0.0793394
263,0.100974,0.338737,0.411269,-0.158447,0.372354,-1.02815,0.049612,0.0,0.512435
264,0.540967,-0.983607,0.804318,0.670283,0.55803,-1.64939,0.665764,0.0,-0.379095
265,-1.11379,0.600925,0.698497,0.514896,-0.184674,-0.765316,0.213919,0.0,-0.888674
266,-1.01814,1.1481,-0.949284,-0.36563,0.743705,0.405492,0.337149,0.0,-0.271173
267,-0.0425012,0.156344,0.229862,0.929262,0.372354,-1.09983,-0.0462338,0.0,-0.296042
268,-0.272062,0.0651481,0.124042,3.31186,-0.184674,-1.23125,-0.949923,0.0,-0.552708
269,0.454881,-0.983607,0.758966,-0.262038,0.186678,0.548856,-1.03208,0.0,0.003794
270,-1.0564,1.1025,-0.949284,0.514896,0.372354,1.08647,-0.922538,0.0,-1.25655
271,-1.14248,1.63828,-0.949284,0.981057,-0.741702,-1.54187,1.47361,0.0,-0.250996
272,0.292275,-0.983607,0.668263,1.96517,0.743705,-1.63745,0.186535,0.0,-0.362672
273,-1.26683,1.41029,-0.949284,0.670283,-0.741702,-0.0843355,0.419303,0.0,-0.389418
274,0.454881,0.669322,-0.949284,-0.262038,0.186678,-1.06399,0.816378,0.0,0.519943
275,-1.08509,-0.983607,0.743849,0.0487354,0.186678,0.429386,0.70684,0.0,-1.67228
276,-1.07553,0.669322,0.758966,-0.262038,0.186678,0.548856,-1.03208,0.0,-0.761514
277,-1.19987,0.532528,0.607794,0.877466,0.00100178,-0.478587,-0.155772,0.0,-0.021075
278,-1.11379,1.70668,-0.949284,-0.36563,1.11506,-1.30293,1.76114,0.0,-0.258034
279,0.330536,-0.983607,0.864787,1.49901,0.55803,-0.932574,-0.498078,0.0,-0.878821
280,-1.07553,0.669322,0.758966,-0.262038,0.186678,-1.06399,0.816378,0.0,-0.715999
281,-1.12335,-0.983607,1.12178,-1.29795,1.67209,0.548856,0.898532,0.0,-1.27907
282,0.579227,-0.983607,1.1369,0.82567,0.743705,-1.85249,0.378226,0.0,0.267499
283,-1.07553,0.669322,-0.949284,-0.262038,0.186678,0.524962,0.788994,0.0,-1.20728
284,-0.0329362,0.281739,0.3508,0.618488,-0.37035,-0.729474,-0.429617,0.0,-0.206419
285,-1.0277,-0.983607,1.99858,1.91338,0.743705,-0.693633,-0.703462,0.0,-1.92003
286,-1.09466,-0.983607,1.84741,-0.831791,1.67209,1.40904,-1.18269,0.0,-1.58501
287,0.0722793,-0.983607,0.411269,0.82567,0.743705,-0.299382,-0.0325415,0.0,-0.306834
288,-1.11379,0.361536,0.441504,-0.00306021,0.00100178,-0.0365475,0.213919,0.0,-0.900405
289,-1.17118,0.942911,1.21248,0.411305,0.186678,0.130711,-1.66192,0.0,-0.478101
290,-0.0520663,0.167744,0.229862,-0.624608,0.55803,-0.239647,-0.0188492,0.0,0.886409
291,0.454881,0.851715,-0.949284,-0.262038,0.55803,-0.46664,-0.0736183,0.0,1.068
292,0.177495,0.384335,-0.949284,-0.779995,0.00100178,0.166552,0.405611,0.0,0.284861
293,0.674877,-0.983607,-0.949284,-0.0548559,-0.741702,0.357704,0.720533,0.0,0.552319
294,-1.15205,-0.983607,1.07643,-0.106652,0.743705,0.274075,0.652071,0.0,-1.60284
295,-1.10422,1.71808,-0.949284,-0.469221,0.929381,1.34931,-1.22377,0.0,0.0464936
296,-1.16161,0.95431,1.06131,0.463101,0.186678,-1.69718,0.556225,0.0,-0.468248
297,0.627052,0.95431,-0.949284,0.618488,0.186678,-1.73302,0.515149,0.0,1.35188
298,-1.0564,-0.983607,1.21248,0.514896,0.372354,1.08647,-0.922538,0.0,-1.65304
299,-1.0564,1.1025,-0.949284,0.514896,0.372354,-0.944521,1.41884,0.0,-0.882105
300,-1.2477,-0.983607,1.56018,-0.158447,0.55803,0.0590287,0.556225,0.0,-1.59627
301,0.00532402,0.293138,0.365918,-0.262038,0.55803,-0.550269,-0.26531,0.0,0.181631
302,0.464446,0.669322,0.758966,-0.210243,0.186678,-1.0401,-1.01838,0.0,0.645226
303,0.454881,0.669322,-0.949284,-2.90362,0.186678,0.524962,0.788994,0.0,0.528858
304,-1.14248,0.988509,-0.949284,-0.0548559,-0.741702,0.357704,0.720533,0.0,-0.88539
305,-1.16161,0.566727,0.653145,-0.262038,0.00100178,-0.179912,0.131766,0.0,-0.72163
306,-1.12335,-0.983607,1.80206,-0.106652,1.48641,-1.39851,1.63791,0.0,-1.44471
307,0.11054,0.350136,0.426387,0.411305,0.00100178,-0.120177,-1.347,0.0,0.464574
308,0.311406,-0.983607,0.668263,-0.987178,1.11506,-0.0365475,0.268688,0.0,-0.06049
309,0.454881,0.669322,-0.949284,-0.262038,0.186678,0.548856,-1.03208,0.0,0.292837
310,-1.0564,1.1139,1.21248,0.566692,0.372354,-0.90868,-0.895154,0.0,-0.528309
311,0.22532,0.543928,-0.949284,0.618488,-0.184674,-0.383011,-0.059926,0.0,0.646165
312,-1.12335,1.01131,-0.949284,-0.624608,-0.927378,0.524962,0.871147,0.0,-0.669076
313,-1.15205,-0.983607,1.75671,0.981057,0.186678,-1.57771,1.43253,0.0,-1.78396
314,0.454881,-0.983607,-0.949284,-0.262038,0.186678,0.524962,0.788994,0.0,-0.792952
315,-1.23813,0.863114,0.955491,-0.572812,0.55803,-0.394958,-0.00515699,0.0,-0.522678
316,-1.0564,-0.983607,1.21248,0.514896,0.372354,-0.944521,1.41884,0.0,-1.83839
317,-0.0998915,0.144945,0.214745,0.307714,-0.184674,-0.442746,-0.210541,0.0,-0.200789
318,-0.989441,1.37609,1.65088,1.7062,0.55803,-1.60161,-1.73038,0.0,0.210723
319,-1.23813,1.2507,0.532207,0.82567,-0.184674,-1.30293,0.254996,0.0,-0.665792
320,-0.970311,0.874514,0.985725,0.722079,0.186678,0.0590287,-1.6893,0.0,-0.647492
321,-0.989441,1.45589,1.52995,0.981057,0.55803,-1.6255,-1.15531,0.0,-0.415225
322,-1.03727,1.45589,1.34854,0.877466,0.372354,-1.63745,-0.826692,0.0,-0.251465
323,-1.11379,0.760519,1.98346,0.463101,0.186678,-0.251594,-1.93577,0.0,-0.828144
324,-1.2477,0.213342,1.96835,0.670283,-0.184674,0.106817,-1.66192,0.0,-1.00973
325,-1.01814,1.39889,1.48459,0.929262,0.00100178,-1.29098,-1.30592,0.0,-0.399271
326,-1.16161,-0.812615,1.99858,-0.36563,-0.184674,0.77585,-0.758231,0.0,-1.45691
327,-1.06596,0.999908,1.84741,2.32774,0.00100178,-1.32683,-2.08638,0.0,-0.844567
328,-0.941616,1.1481,1.99858,0.100531,0.00100178,-0.693633,-1.75777,0.0,-0.875067
329,-0.77901,-0.003249,1.92299,1.55081,-0.184674,-0.394958,-1.93577,0.0,-0.940289
330,-1.04683,1.04551,1.87764,1.96517,0.00100178,-1.2193,-2.059,0.0,-0.499217
331,-0.273019,0.0617282,0.1316,3.30668,-0.184674,-1.23244,-0.944446,0.0,-0.552521
332,0.457751,-0.983607,0.758966,-0.236141,0.186678,0.547662,-1.03618,0.0,0.00384092
333,-1.05831,1.10706,-0.949284,0.530435,0.390921,1.09125,-0.926646,0.0,-1.25636
334,-1.14344,1.64398,-0.949284,1.00695,-0.667432,-1.54187,1.47087,0.0,-0.274129
335,0.292275,-0.983607,0.663728,1.98589,0.650867,-1.63506,0.192011,0.0,-0.362625
336,-1.26587,1.41257,-0.949284,0.654745,-0.723134,-0.0795567,0.423411,0.0,-0.531546
337,0.457751,0.669322,-0.949284,-0.236141,0.186678,-1.0616,0.816378,0.0,0.284251
338,-1.08892,-0.983607,0.742337,0.0694537,0.16811,0.429386,0.705471,0.0,-1.67195
339,-1.07457,0.669322,0.758966,-0.236141,0.186678,0.547662,-1.03618,0.0,-0.761467
340,-1.20083,0.527968,0.612329,0.893005,0.0752721,-0.478587,-0.150295,0.0,-0.0207465
341,-1.109,1.70668,-0.949284,-0.375989,1.04079,-1.30532,1.75704,0.0,-0.257565
342,0.328623,-0.983607,0.861764,1.47312,0.539462,-0.930184,-0.503555,0.0,-0.878774
343,-1.07457,0.669322,0.758966,-0.236141,0.186678,-1.0616,0.816378,0.0,-0.715624
344,-1.1224,-0.983607,1.11573,-1.29277,1.69065,0.546467,0.899901,0.0,-1.2787
345,0.584009,-0.983607,1.13539,0.82567,0.70657,-1.8513,0.385072,0.0,0.128092
346,-1.0784,0.665903,-0.949284,-0.256859,0.186678,0.521378,0.791732,0.0,-1.20723
347,-0.0338927,0.276039,0.352312,0.639206,-0.37035,-0.727085,-0.435094,0.0,-0.206185
348,-1.02388,-0.983607,1.99707,1.89784,0.743705,-0.697218,-0.704831,0.0,-1.91999
349,-1.09753,-0.983607,1.85194,-0.847329,1.59781,1.41502,-1.18269,0.0,-1.58482
350,0.0684533,-0.983607,0.405222,0.810132,0.669435,-0.295798,-0.029803,0.0,-0.306458
351,-1.11379,0.356976,0.436969,-0.00823977,0.0195694,-0.0317687,0.218027,0.0,-0.899983
352,-1.17118,0.947471,1.20795,0.395766,0.260948,0.13549,-1.65507,0.0,-0.477914
353,-0.0530228,0.163184,0.235909,-0.645326,0.6323,-0.243231,-0.0202185,0.0,0.886409
354,0.453925,0.846015,-0.949284,-0.282757,0.483759,-0.471419,-0.0667721,0.0,1.06833
355,0.177495,0.380915,-0.949284,-0.764456,0.038137,0.171331,0.408349,0.0,0.284907
356,0.67966,-0.983607,-0.949284,-0.0600354,-0.667432,0.355315,0.717794,0.0,0.552601
357,-1.15396,-0.983607,1.07038,-0.117011,0.762273,0.280048,0.645225,0.0,-1.60246
358,-1.10422,1.7158,-0.949284,-0.47958,0.910814,1.35289,-1.22651,0.0,0.0464936
359,-1.16448,0.95659,1.05526,0.442382,0.279516,-1.69599,0.560333,0.0,-0.46806
360,0.62227,0.949751,-0.949284,0.613308,0.205245,-1.73302,0.519256,0.0,1.3523
361,-1.05831,-0.983607,1.20946,0.530435,0.390921,1.09125,-0.926646,0.0,-1.653
362,-1.05831,1.10706,-0.949284,0.530435,0.390921,-0.942131,1.41473,0.0,-0.882105
363,-1.25057,-0.983607,1.55565,-0.148088,0.55803,0.0590287,0.554856,0.0,-1.59622
364,0.00723703,0.296558,0.373476,-0.267218,0.6323,-0.553853,-0.272156,0.0,0.181912
365,0.464446,0.672742,0.76199,-0.215422,0.186678,-1.0389,-1.01565,0.0,0.645555
366,0.452012,0.665903,-0.949284,-2.88808,0.186678,0.521378,0.791732,0.0,0.52914
367,-1.14535,0.983949,-0.949284,-0.0600354,-0.667432,0.355315,0.717794,0.0,-0.885014
368,-1.16352,0.570147,0.656169,-0.256859,0.0938397,-0.173938,0.135873,0.0,-0.721442
369,-1.1224,-0.983607,1.80357,-0.0859332,1.48641,-1.3997,1.64202,0.0,-1.44429
370,0.11054,0.347856,0.426387,0.390587,0.00100178,-0.114203,-1.35247,0.0,0.464809
371,0.312362,-0.983607,0.675821,-1.0079,1.07792,-0.0341581,0.268688,0.0,-0.0600677
372,0.457751,0.669322,-0.949284,-0.236141,0.186678,0.547662,-1.03618,0.0,0.292978
373,-1.05448,1.11276,1.21551,0.556333,0.409489,-0.913459,-0.902,0.0,-0.527933
374,0.22532,0.540508,-0.949284,0.613308,-0.277512,-0.381816,-0.0585568,0.0,0.646446
375,-1.12526,1.01245,-0.949284,-0.614249,-0.890243,0.524962,0.877993,0.0,-0.668701
376,-1.14822,-0.983607,1.75519,0.965518,0.149543,-1.57771,1.42842,0.0,-1.78391
377,0.452012,-0.983607,-0.949284,-0.256859,0.186678,0.521378,0.791732,0.0,-0.792483
378,-1.23431,0.858554,0.952467,-0.593531,0.6323,-0.399737,0.000319916,0.0,-0.522349
379,-1.05831,-0.983607,1.20946,0.530435,0.390921,-0.942131,1.41473,0.0,-1.8382
380,-0.097022,0.142665,0.214745,0.286995,-0.0918362,-0.442746,-0.206433,0.0,-0.200742
381,0.0703663,0.214482,0.287308,1.37988,0.372354,-0.621951,-1.15941,0.0,0.0287568
382,-0.989441,1.18344,1.28958,-0.220602,2.19198,-1.40926,-0.314602,0.0,-0.203229
383,-1.06979,0.660203,0.748384,1.91856,0.576597,-0.392569,-1.45791,0.0,-1.37775
384,-1.1377,0.322777,0.400687,0.975878,0.335218,-1.14762,0.891686,0.0,-1.14065
385,-1.087,1.04665,1.14748,-0.805893,2.09914,-0.144071,-0.9554,0.0,-0.027128
386,0.42523,0.644244,0.731755,-0.790354,2.80471,-0.503676,-1.54964,0.0,0.0998446
387,-1.16544,-0.983607,1.69472,-1.27723,2.02487,-0.159602,1.09707,0.0,-1.45128
388,0.36497,0.611185,-0.949284,1.57671,-0.147539,-0.723501,-0.573386,0.0,-0.226549
389,1.04122,-0.983607,-0.949284,0.369868,-0.054701,0.682663,-0.465217,0.0,0.157043
390,-1.02196,0.713781,0.804318,-0.412246,1.48641,-0.0329634,-0.611724,0.0,-0.617086
391,-1.07935,1.73746,-0.949284,0.877466,-0.128971,0.546467,-1.10191,0.0,-0.672971
392,0.426186,0.644244,-0.949284,-0.785175,0.55803,-0.498897,0.542533,0.0,0.582303
393,0.376448,-0.983607,0.556395,0.670283,0.520894,0.0399134,-0.810262,0.0,-0.450886
394,-1.09561,-0.983607,1.83078,-0.852509,0.855111,0.419829,0.10712,0.0,-1.44133
395,-1.1817,0.915552,1.01142,-0.495119,0.725138,-0.877618,0.286488,0.0,0.535146
396,0.309493,0.580406,0.666751,0.9448,-0.184674,-0.927795,-1.49351,0.0,1.14171
397,0.534271,0.888193,-0.949284,0.385407,-0.44462,-1.02815,0.131766,0.0,1.39308
398,0.961829,1.1481,-0.949284,0.426844,-0.0732686,-1.57413,-0.102372,0.0,1.98454
399,0.137322,0.48579,0.568489,-0.552094,0.465192,-1.56457,0.554856,0.0,1.09423
400,-0.12763,0.123286,0.193581,0.556333,0.24238,-1.44032,0.780778,0.0,-0.22791
401,-0.964572,-0.983607,1.32435,-0.0755741,0.873679,0.803328,-0.485755,0.0,-1.27363
402,-1.05066,1.79217,-0.949284,-0.142908,0.688003,0.787797,-0.912954,0.0,0.0418482
403,-1.00666,1.1595,1.26388,1.04321,0.799408,-1.52156,-0.748646,0.0,-0.0976058
404,0.312362,-0.983607,0.668263,0.173045,-0.166107,-0.920627,0.695886,0.0,0.401229
405,0.50175,-0.983607,0.963049,1.37988,-0.240377,-1.14165,-0.380325,0.0,0.225503
406,0.20906,0.390034,0.470227,0.2352,0.409489,-0.617173,-0.9376,0.0,0.479777
407,0.575401,0.913272,-0.949284,-0.469221,0.353786,-0.889565,0.350842,0.0,1.6665
408,0.865222,-0.983607,1.19132,0.530435,0.743705,-1.84772,0.192011,0.0,0.280403
409,-1.27639,1.37039,1.48308,-0.215422,-0.277512,-1.06519,-0.394017,0.0,-0.234244
410,0.545749,0.710361,-0.949284,0.141968,0.279516,-0.0604415,-0.751385,0.0,1.06697
411,-0.968398,-0.983607,2.07568,-0.0962924,1.04079,-1.27545,1.11761,0.0,-1.47389
412,0.462533,-0.983607,0.752919,-0.681583,0.576597,-0.36748,0.253627,0.0,0.116549
413,0.535228,-0.983607,0.984213,-0.028958,0.836543,-1.02696,0.209811,0.0,0.0351852
414,-1.20274,0.884773,0.98119,2.77837,-0.221809,-1.04488,-1.4894,0.0,-0.103659
415,0.219581,0.395734,-0.949284,-0.293116,0.00100178,-0.575358,0.891686,0.0,0.366928
416,0.313319,-0.983607,0.668263,1.37988,0.762273,-0.913459,-0.276264,0.0,-0.331656
417,-0.00902355,0.281739,0.358359,0.644385,-0.203242,-1.47497,0.356319,0.0,0.326246
418,-1.01048,1.86627,-0.949284,-0.759277,0.966517,1.11395,-1.04303,0.0,0.184258
419,-0.951181,1.97685,-0.949284,0.00729892,1.05935,-1.16196,0.854717,0.0,0.0795271
420,0.104801,0.338737,0.415805,-0.179165,0.353786,-1.02696,0.0537197,0.0,0.512858
421,0.54288,-0.983607,0.798271,0.670283,0.6323,-1.65059,0.67124,0.0,-0.379048
422,-1.11857,0.605485,0.69245,0.499358,-0.166107,-0.760537,0.213919,0.0,-0.888252
423,-1.01718,1.14468,-0.949284,-0.386348,0.799408,0.400713,0.33578,0.0,-0.270891
424,-0.0434577,0.162044,0.234397,0.908543,0.298083,-1.09386,-0.0393876,0.0,-0.295854